Folder: Anna-PLots/Anna_PLots/output_files

Note: README.md
# Anna-PLots
Plotting and treatment of CV and CA data from EC lab

File: CH4(anode)_H2, ref@cath.csv
,E_grad,Ewe/V,I_grad,i/mAcm^-2_geom,time_stamp
0,1.31769e-07,0.131056,0.000422187,0.0477571,3.5876
1,8.16123e-08,0.299742,-0.00022107,0.3209,604.588
2,6.52294e-08,0.349634,-0.000106125,0.31497,1203.59
3,4.92773e-09,0.39973,-0.000364958,0.439279,1803.59
4,-7.27551e-08,0.449769,2.64374e-05,0.437278,2403.59
5,-3.15277e-08,0.499687,9.65956e-05,0.480143,3003.59
6,2.33864e-07,0.549718,-0.000147953,0.429239,3603.59
7,5.73164e-08,0.59985,-0.000286786,0.475878,4203.59
8,5.80228e-08,0.649616,0.000164692,0.509777,4803.59
9,-1.80914e-08,0.699551,4.67216e-06,0.607939,5403.59
10,-5.64842e-08,0.749661,5.79913e-05,0.838003,6004.59
11,-1.14807e-07,0.799666,1.57307e-05,0.938577,6604.59
12,-9.59287e-08,0.74962,0.000142907,0.864149,7203.59
13,1.14664e-07,0.699533,-0.000100949,0.654939,7803.59
14,-7.29967e-08,0.649607,-1.36929e-05,0.517967,8403.59
15,-7.74324e-08,0.599838,3.36035e-05,0.448912,9003.59
16,-1.3592e-07,0.549712,0.00023439,0.443536,9603.59
17,2.71383e-07,0.499683,-0.000393198,0.412896,10203.6
18,1.02422e-07,0.44975,-0.000454883,0.446625,10803.6
19,-7.30281e-09,0.399699,8.00658e-06,0.364879,11403.6
20,-1.33932e-07,0.349621,-0.000144243,0.433044,12003.6
21,1.68106e-07,0.299724,0.000261282,0.314333,12603.6
22,2.38295e-08,0.131034,2.72491e-05,0.0506813,13204.6

File: N2(anode)_H2, ref@cath.csv
,E_grad,Ewe/V,I_grad,i/mAcm^-2_geom,time_stamp
0,-1.73903e-07,0.586796,5.21612e-05,-0.130303,3.3386
1,6.01534e-08,0.299658,7.08757e-05,-0.241279,604.339
2,-1.33769e-07,0.349481,-2.95483e-05,-0.223354,1203.34
3,1.83723e-07,0.399637,-0.000110589,-0.216062,1803.34
4,-5.13119e-08,0.449738,-5.48896e-05,-0.197874,2403.34
5,4.89814e-08,0.499564,5.88805e-05,-0.191744,3003.34
6,-5.76855e-08,0.549683,2.73268e-05,-0.153288,3603.34
7,-9.75355e-08,0.599687,5.00337e-05,-0.0858286,4203.34
8,-3.25335e-07,0.649598,-0.000114407,-0.014306,4803.34
9,-3.76477e-08,0.699384,6.46351e-05,0.147489,5403.34
10,-7.49106e-08,0.749393,6.89031e-05,0.37357,6003.34
11,-7.68583e-08,0.799617,-7.82816e-05,0.508008,6603.34
12,1.92721e-07,0.749436,6.52396e-05,0.396229,7203.34
13,-4.66022e-08,0.699536,9.90529e-05,0.22696,7803.34
14,9.7892e-08,0.649597,4.79528e-05,0.0534774,8403.34
15,-9.65454e-08,0.599685,-1.91286e-05,-0.0795671,9003.34
16,2.89549e-07,0.549701,5.58597e-05,-0.143295,9603.34
17,-1.79172e-07,0.499518,-1.42986e-05,-0.165159,10203.3
18,1.12907e-07,0.449735,7.88552e-05,-0.195268,10803.4
19,-2.35547e-07,0.399651,-2.02592e-05,-0.205044,11403.3
20,1.19028e-07,0.349453,4.7024e-06,-0.212854,12003.3
21,-5.27784e-08,0.299639,-4.88828e-05,-0.213093,12603.3
22,3.00989e-07,0.586746,-0.000139009,-0.105033,13204.3